Folder: howardjason/Blender/XRD

File: file1
10.01  1.87197e-07
10.38  3.5129e-07
10.75  4.53565e-06
11.12  6.1431e-06
11.49  6.47642e-05
11.86  1.59231e-06
12.23  4.98053e-07
12.6  2.40329e-07
12.97  1.41341e-07
13.34  9.39337e-08
13.71  6.70513e-06
14.08  5.01062e-08
14.45  3.82517e-08
14.82  3.08525e-08
15.19  3.76912e-07
15.56  5.04439e-08
15.93  2.76156e-08
16.3  2.28938e-08
16.67  2.46685e-08
17.04  1.72154e-05
17.41  2.35709e-08
17.78  1.93785e-08
18.15  1.90148e-08
18.52  2.03488e-08
18.89  5.10801e-08
19.26  5.83687e-08
19.63  2.30746e-08
20.0  2.36385e-08
20.37  2.79733e-08
20.74  3.27667e-08
21.11  3.27798e-08
21.48  4.10446e-08
21.85  4.49932e-08
22.22  5.91632e-08
22.59  1.10393e-07
22.96  0.000144831
23.33  1.59149e-07
23.7  1.67271e-07
24.07  2.48263e-07
24.44  4.47143e-07
24.81  7.28523e-07
25.18  2.06866e-06
25.55  4.13708e-05
25.92  1.32833e-05
26.29  1.69012e-06
26.66  6.87958e-07
27.03  4.00127e-07
27.4  2.56571e-07
27.77  2.65694e-07
28.14  1.70239e-07
28.51  1.99023e-07
28.88  2.87188e-07
29.25  1.67718e-07
29.62  1.86981e-07
29.99  3.05387e-06
30.36  2.80498e-07
30.73  7.19863e-07
31.1  5.32302e-07
31.47  8.76354e-07
31.84  1.85482e-06
32.21  5.39255e-06
32.58  0.000146037
32.95  3.20041e-05
33.32  3.2092e-06
33.69  1.78553e-06
34.06  1.52082e-06
34.43  4.4848e-06
34.8  0.000113002
35.17  2.08826e-06
35.54  9.5099e-07
35.91  3.95699e-07
36.28  8.3281e-07
36.65  2.35134e-07
37.02  1.74986e-07
37.39  1.55351e-07
37.76  1.51924e-07
38.13  3.73007e-06
38.5  2.27244e-07
38.87  4.19878e-06
39.24  3.85483e-07
39.61  1.95926e-06
39.98  2.13904e-06
40.35  0.00113631
40.72  1.7227e-06
41.09  6.94651e-07
41.46  8.498e-07
41.83  8.04392e-06
42.2  9.46738e-06
42.57  7.54596e-07
42.94  3.43613e-07
43.31  2.52926e-07
43.68  3.00637e-07
44.05  2.58197e-07
44.42  2.20125e-07
44.79  2.68953e-07
45.16  3.65883e-07
45.53  2.12359e-05
45.9  9.26116e-07
46.27  2.31071e-06
46.64  1.22185e-05
47.01  0.000112026
47.38  4.15841e-06
47.75  2.98406e-06
48.12  5.28809e-06
48.49  0.000595684
48.86  2.98757e-06
49.23  9.78481e-07
49.6  1.06888e-06
49.97  3.7791e-07
50.34  8.58138e-07
50.71  2.19325e-07
51.08  2.1527e-06
51.45  3.0134e-07
51.82  1.26567e-06
52.19  1.50097e-06
52.56  3.92053e-07
52.93  3.43899e-06
53.3  5.48777e-07
53.67  1.35388e-06
54.04  6.38692e-06
54.41  2.43476e-05
54.78  1.46908e-06
55.15  6.2877e-07
55.52  1.35644e-06
55.89  1.5907e-06
56.26  3.97411e-07
56.63  4.90212e-07
57.0  6.3359e-07
57.37  1.85237e-06
57.74  1.10524e-05
58.11  1.66897e-05
58.48  8.2523e-05
58.85  3.98649e-06
59.22  2.22351e-06
59.59  6.64157e-05
59.96  2.21832e-06
60.33  7.14658e-07
60.7  1.47069e-05
61.07  2.93605e-07
61.44  2.6264e-07
61.81  2.66383e-07
62.18  3.09314e-07
62.55  3.90952e-06
62.92  2.6358e-06
63.29  2.94677e-07
63.66  7.41803e-07
64.03  7.38492e-07
64.4  2.4102e-06
64.77  0.0014304
65.14  2.93365e-06
65.51  8.6228e-07
65.88  1.10027e-06
66.25  3.79662e-07
66.62  3.5172e-07
66.99  7.5324e-06
67.36  9.54218e-07
67.73  1.29047e-06
68.1  4.15457e-06
68.47  0.00107694
68.84  6.97371e-06
69.21  2.21815e-05
69.58  1.66456e-05
69.95  4.30433e-06
70.32  4.12524e-06
70.69  7.09291e-07
71.06  3.08395e-07
71.43  2.07786e-07
71.8  3.58663e-07
72.17  1.54904e-07
72.54  1.65582e-07
72.91  3.68335e-07
73.28  3.27715e-05
73.65  4.40559e-07
74.02  4.18496e-06
74.39  7.62906e-06
74.76  1.93346e-06
75.13  5.12662e-07
75.5  1.12709e-05
75.87  1.32581e-06
76.24  3.04899e-07
76.61  6.46387e-06
76.98  2.05006e-06
77.35  1.60265e-06
77.72  7.67003e-06
78.09  0.000192691
78.46  3.97281e-06
78.83  3.48186e-06
79.2  0.00106533
79.57  2.32375e-06
79.94  9.62782e-07
80.31  5.93706e-07
80.68  3.2477e-07
81.05  3.09292e-07
81.42  4.3002e-07
81.79  1.00518e-06
82.16  3.25893e-06
82.53  0.000111283
82.9  2.66518e-06
83.27  7.84665e-06
83.64  4.52673e-05
84.01  4.46813e-06
84.38  1.35036e-06
84.75  1.07389e-06
85.12  1.16327e-06
85.49  3.3138e-07
85.86  8.2883e-07
86.23  2.37188e-06
86.6  2.24214e-06
86.97  8.84604e-06
87.34  1.68319e-05
87.71  2.31311e-05
88.08  6.67419e-06
88.45  1.76566e-05
88.82  3.78271e-06
89.19  5.25351e-07
89.56  3.88923e-07
89.93  2.78275e-07
90.3  7.34573e-06
90.67  3.1873e-06
91.04  4.57083e-07
91.41  6.25083e-07
91.78  2.12604e-05
92.15  1.18902e-06
92.52  2.28447e-06
92.89  0.000665614
93.26  2.82445e-06
93.63  9.58226e-07
94.0  7.62136e-07
94.37  1.57844e-06
94.74  8.02595e-07
95.11  1.05932e-06
95.48  2.46803e-06
95.85  8.36547e-06
96.22  0.00151515
96.59  1.21545e-05
96.96  1.99657e-05
97.33  0.00062034
97.7  2.86677e-06
98.07  1.2169e-06
98.44  2.33854e-06
98.81  1.20461e-06
99.18  3.25931e-07
99.55  1.49767e-06
99.92  1.76238e-06
100.29  3.99202e-06
100.66  4.15929e-07
101.03  5.30781e-07
101.4  7.29367e-06
101.77  4.11657e-06
102.14  2.32173e-05
102.51  2.83594e-06
102.88  3.11825e-06
103.25  5.97658e-07
103.62  3.50808e-07
103.99  5.29929e-07
104.36  5.26977e-07
104.73  6.96904e-07
105.1  1.83194e-06
105.47  4.34526e-05
105.84  3.6798e-06
106.21  7.61067e-06
106.58  7.96352e-05
106.95  5.28042e-06
107.32  2.40198e-06
107.69  8.2115e-07
108.06  4.19621e-06
108.43  2.9643e-07
108.8  2.07105e-06
109.17  2.93462e-07
109.54  3.57123e-07
109.91  7.66434e-07
110.28  5.23993e-05
110.65  1.24479e-06
111.02  1.80567e-06
111.39  8.55129e-05
111.76  7.79821e-06
112.13  3.57233e-06
112.5  6.87303e-06
112.87  8.23948e-07
113.24  6.72453e-07
113.61  1.96298e-06
113.98  1.75696e-06
114.35  1.90733e-06
114.72  7.19002e-06
115.09  0.000505957
115.46  2.62747e-05
115.83  8.72733e-06
116.2  4.01383e-06
116.57  0.00017959
116.94  1.96009e-06
117.31  1.07372e-06
117.68  6.35878e-06
118.05  4.22425e-07
118.42  3.71596e-07
118.79  1.86922e-06
119.16  1.10717e-06
119.53  9.35628e-07
119.9  4.02129e-06
119.99  2.36638e-06